image,correct_key,Recog_trials.thisRepN,Recog_trials.thisTrialN,Recog_trials.thisN,Recog_trials.thisIndex,text.started,text_2.started,key_resp.started,key_resp.keys,key_resp.rt,LandmarkImage.started,Recog_Question.started,Recog_key_resp.started,text_4.started,Recog_key_resp.keys,Recog_key_resp.corr,Recog_key_resp.rt,text_3.started,participant,session,date,expName,psychopyVersion,frameRate,
,,,,,,30.01530823300709,33.028910127992276,33.028910127992276,space,9.32946175901452,,,,,,,,,336769,001,2023-02-08_14h36.36.803,SEAL_LandmarkRecog,2022.2.4,None,
Recognition/Correct/Landmark9.jpeg,y,0,0,0,0,,,,,,43.48401624598773,43.48401624598773,43.48401624598773,43.48401624598773,y,1,8.47259885398671,,336769,001,2023-02-08_14h36.36.803,SEAL_LandmarkRecog,2022.2.4,None,
Recognition/Correct/Landmark8.jpeg,y,0,1,1,1,,,,,,52.75451172600151,52.75451172600151,52.75451172600151,52.75451172600151,n,0,0.6530294100230094,,336769,001,2023-02-08_14h36.36.803,SEAL_LandmarkRecog,2022.2.4,None,
Recognition/Incorrect/Landmark37.jpeg,n,0,2,2,2,,,,,,54.17354423098732,54.17354423098732,54.17354423098732,54.17354423098732,y,0,0.33556421799585223,,336769,001,2023-02-08_14h36.36.803,SEAL_LandmarkRecog,2022.2.4,None,
Recognition/Correct/Landmark10.jpeg,y,0,3,3,3,,,,,,55.40995431601186,55.40995431601186,55.40995431601186,55.40995431601186,y,1,0.02362759000970982,,336769,001,2023-02-08_14h36.36.803,SEAL_LandmarkRecog,2022.2.4,None,
Recognition/Incorrect/Landmark30.jpeg,n,0,4,4,4,,,,,,56.16017675001058,56.16017675001058,56.16017675001058,56.16017675001058,y,0,0.2746239730040543,,336769,001,2023-02-08_14h36.36.803,SEAL_LandmarkRecog,2022.2.4,None,
Recognition/Incorrect/Landmark38.jpeg,n,0,5,5,5,,,,,,57.13782465600525,57.13782465600525,57.13782465600525,57.13782465600525,y,0,0.08662070200080052,,336769,001,2023-02-08_14h36.36.803,SEAL_LandmarkRecog,2022.2.4,None,
Recognition/Incorrect/Landmark27.jpeg,n,0,6,6,6,,,,,,57.89937877599732,57.89937877599732,57.89937877599732,57.89937877599732,y,0,0.04134394897846505,,336769,001,2023-02-08_14h36.36.803,SEAL_LandmarkRecog,2022.2.4,None,
Recognition/Correct/Landmark18.jpeg,y,0,7,7,7,,,,,,58.54944016499212,58.54944016499212,58.54944016499212,58.54944016499212,y,1,0.1220915799785871,,336769,001,2023-02-08_14h36.36.803,SEAL_LandmarkRecog,2022.2.4,None,
Recognition/Incorrect/Landmark33.jpeg,n,0,8,8,8,,,,,,59.288396599993575,59.288396599993575,59.288396599993575,59.288396599993575,n,1,0.1043984460120555,,336769,001,2023-02-08_14h36.36.803,SEAL_LandmarkRecog,2022.2.4,None,
Recognition/Correct/Landmark2.jpeg,y,0,9,9,9,,,,,,59.99281547899591,59.99281547899591,59.99281547899591,59.99281547899591,y,1,0.1833965679979883,,336769,001,2023-02-08_14h36.36.803,SEAL_LandmarkRecog,2022.2.4,None,
Recognition/Correct/Landmark11.jpeg,y,0,10,10,10,,,,,,60.72855961800087,60.72855961800087,60.72855961800087,60.72855961800087,n,0,0.128438976011239,,336769,001,2023-02-08_14h36.36.803,SEAL_LandmarkRecog,2022.2.4,None,
Recognition/Incorrect/Landmark25.jpeg,n,0,11,11,11,,,,,,61.421381048014155,61.421381048014155,61.421381048014155,61.421381048014155,n,1,0.5457819320145063,,336769,001,2023-02-08_14h36.36.803,SEAL_LandmarkRecog,2022.2.4,None,
Recognition/Incorrect/Landmark28.jpeg,n,0,12,12,12,,,,,,62.537097205989994,62.537097205989994,62.537097205989994,62.537097205989994,n,1,0.18615086600766517,,336769,001,2023-02-08_14h36.36.803,SEAL_LandmarkRecog,2022.2.4,None,
Recognition/Correct/Landmark16.jpeg,y,0,13,13,13,,,,,,63.37451583798975,63.37451583798975,63.37451583798975,63.37451583798975,y,1,0.16056177899008617,,336769,001,2023-02-08_14h36.36.803,SEAL_LandmarkRecog,2022.2.4,None,
Recognition/Correct/Landmark6.jpeg,y,0,14,14,14,,,,,,63.81650880599045,63.81650880599045,63.81650880599045,63.81650880599045,n,0,0.043564235005760565,,336769,001,2023-02-08_14h36.36.803,SEAL_LandmarkRecog,2022.2.4,None,
Recognition/Correct/Landmark7.jpeg,y,0,15,15,15,,,,,,64.48658777400851,64.48658777400851,64.48658777400851,64.48658777400851,y,1,0.720370189024834,,336769,001,2023-02-08_14h36.36.803,SEAL_LandmarkRecog,2022.2.4,None,
Recognition/Correct/Landmark5.jpeg,y,0,16,16,16,,,,,,65.94985804799944,65.94985804799944,65.94985804799944,65.94985804799944,y,1,0.02698759300983511,,336769,001,2023-02-08_14h36.36.803,SEAL_LandmarkRecog,2022.2.4,None,
Recognition/Incorrect/Landmark39.jpeg,n,0,17,17,17,,,,,,66.53401361999568,66.53401361999568,66.53401361999568,66.53401361999568,y,0,0.02170921498327516,,336769,001,2023-02-08_14h36.36.803,SEAL_LandmarkRecog,2022.2.4,None,
Recognition/Incorrect/Landmark21.jpeg,n,0,18,18,18,,,,,,67.19240594201256,67.19240594201256,67.19240594201256,67.19240594201256,n,1,0.02387573299347423,,336769,001,2023-02-08_14h36.36.803,SEAL_LandmarkRecog,2022.2.4,None,
Recognition/Incorrect/Landmark24.jpeg,n,0,19,19,19,,,,,,67.79840329798753,67.79840329798753,67.79840329798753,67.79840329798753,y,0,0.6238088840036653,,336769,001,2023-02-08_14h36.36.803,SEAL_LandmarkRecog,2022.2.4,None,
Recognition/Correct/Landmark13.jpeg,y,0,20,20,20,,,,,,69.00545719699585,69.00545719699585,69.00545719699585,69.00545719699585,y,1,0.05329120400710963,,336769,001,2023-02-08_14h36.36.803,SEAL_LandmarkRecog,2022.2.4,None,
Recognition/Incorrect/Landmark32.jpeg,n,0,21,21,21,,,,,,69.66069695798797,69.66069695798797,69.66069695798797,69.66069695798797,y,0,1.4300095709913876,,336769,001,2023-02-08_14h36.36.803,SEAL_LandmarkRecog,2022.2.4,None,
Recognition/Incorrect/Landmark29.jpeg,n,0,22,22,22,,,,,,71.65962923999177,71.65962923999177,71.65962923999177,71.65962923999177,n,1,0.6777499750023708,,336769,001,2023-02-08_14h36.36.803,SEAL_LandmarkRecog,2022.2.4,None,
Recognition/Correct/Landmark15.jpeg,y,0,23,23,23,,,,,,72.903364288999,72.903364288999,72.903364288999,72.903364288999,n,0,0.48276380301103927,,336769,001,2023-02-08_14h36.36.803,SEAL_LandmarkRecog,2022.2.4,None,
Recognition/Incorrect/Landmark26.jpeg,n,0,24,24,24,,,,,,74.04329039499862,74.04329039499862,74.04329039499862,74.04329039499862,y,0,0.016720818995963782,,336769,001,2023-02-08_14h36.36.803,SEAL_LandmarkRecog,2022.2.4,None,
Recognition/Correct/Landmark1.jpeg,y,0,25,25,25,,,,,,74.6671966589929,74.6671966589929,74.6671966589929,74.6671966589929,n,0,0.2806036220281385,,336769,001,2023-02-08_14h36.36.803,SEAL_LandmarkRecog,2022.2.4,None,
Recognition/Correct/Landmark4.jpeg,y,0,26,26,26,,,,,,75.53295349900145,75.53295349900145,75.53295349900145,75.53295349900145,y,1,0.14785001799464226,,336769,001,2023-02-08_14h36.36.803,SEAL_LandmarkRecog,2022.2.4,None,
Recognition/Incorrect/Landmark35.jpeg,n,0,27,27,27,,,,,,76.27764680699329,76.27764680699329,76.27764680699329,76.27764680699329,n,1,0.0813751190144103,,336769,001,2023-02-08_14h36.36.803,SEAL_LandmarkRecog,2022.2.4,None,
Recognition/Incorrect/Landmark22.jpeg,n,0,28,28,28,,,,,,76.97833959100535,76.97833959100535,76.97833959100535,76.97833959100535,y,0,0.0519058030040469,,336769,001,2023-02-08_14h36.36.803,SEAL_LandmarkRecog,2022.2.4,None,
Recognition/Incorrect/Landmark23.jpeg,n,0,29,29,29,,,,,,77.59334630600642,77.59334630600642,77.59334630600642,77.59334630600642,n,1,0.23353894101455808,,336769,001,2023-02-08_14h36.36.803,SEAL_LandmarkRecog,2022.2.4,None,
Recognition/Incorrect/Landmark40.jpeg,n,0,30,30,30,,,,,,78.40855401800945,78.40855401800945,78.40855401800945,78.40855401800945,y,0,0.04381059799925424,,336769,001,2023-02-08_14h36.36.803,SEAL_LandmarkRecog,2022.2.4,None,
Recognition/Incorrect/Landmark31.jpeg,n,0,31,31,31,,,,,,79.0290924939909,79.0290924939909,79.0290924939909,79.0290924939909,n,1,0.1353347520052921,,336769,001,2023-02-08_14h36.36.803,SEAL_LandmarkRecog,2022.2.4,None,
Recognition/Correct/Landmark14.jpeg,y,0,32,32,32,,,,,,79.75623988799634,79.75623988799634,79.75623988799634,79.75623988799634,y,1,0.048195718991337344,,336769,001,2023-02-08_14h36.36.803,SEAL_LandmarkRecog,2022.2.4,None,
Recognition/Correct/Landmark20.jpeg,y,0,33,33,33,,,,,,80.38797767899814,80.38797767899814,80.38797767899814,80.38797767899814,n,0,0.07939895201707259,,336769,001,2023-02-08_14h36.36.803,SEAL_LandmarkRecog,2022.2.4,None,
Recognition/Incorrect/Landmark36.jpeg,n,0,34,34,34,,,,,,81.06810406901059,81.06810406901059,81.06810406901059,81.06810406901059,n,1,0.48581352600012906,,336769,001,2023-02-08_14h36.36.803,SEAL_LandmarkRecog,2022.2.4,None,
Recognition/Correct/Landmark12.jpeg,y,0,35,35,35,,,,,,82.11881028101197,82.11881028101197,82.11881028101197,82.11881028101197,n,0,1.3987783910124563,,336769,001,2023-02-08_14h36.36.803,SEAL_LandmarkRecog,2022.2.4,None,
Recognition/Incorrect/Landmark35.jpeg,n,0,36,36,36,,,,,,84.11602815901279,84.11602815901279,84.11602815901279,84.11602815901279,y,0,0.3871440819930285,,336769,001,2023-02-08_14h36.36.803,SEAL_LandmarkRecog,2022.2.4,None,
Recognition/Correct/Landmark17.jpeg,y,0,37,37,37,,,,,,85.06831696999143,85.06831696999143,85.06831696999143,85.06831696999143,y,1,0.4569795260031242,,336769,001,2023-02-08_14h36.36.803,SEAL_LandmarkRecog,2022.2.4,None,
Recognition/Correct/Landmark3.jpeg,y,0,38,38,38,,,,,,86.20024129698868,86.20024129698868,86.20024129698868,86.20024129698868,y,1,0.4649212110089138,,336769,001,2023-02-08_14h36.36.803,SEAL_LandmarkRecog,2022.2.4,None,
Recognition/Correct/Landmark19.jpeg,y,0,39,39,39,,,,,,87.39271365999593,87.39271365999593,87.39271365999593,87.39271365999593,y,1,0.575455163983861,,336769,001,2023-02-08_14h36.36.803,SEAL_LandmarkRecog,2022.2.4,None,
,,,,,,,,,,,,,,,,,,87.98860300399247,,,,,,,
