image,correct_key,Recog_trials.thisRepN,Recog_trials.thisTrialN,Recog_trials.thisN,Recog_trials.thisIndex,text.started,text_2.started,key_resp.started,key_resp.keys,key_resp.rt,LandmarkImage.started,Recog_Question.started,Recog_key_resp.started,Recog_key_resp.keys,Recog_key_resp.corr,Recog_key_resp.rt,text_3.started,text_3.stopped,participant,session,date,expName,psychopyVersion,frameRate,
,,,,,,18.591289132018574,21.590621481009293,21.590621481009293,space,3.0473609869659413,,,,,,,,,449062,001,2023-02-06_13h50.32.411,SEAL_LandmarkRecog,2022.2.4,None,
Recognition/Correct/Landmark9.jpeg,y,0,0,0,0,,,,,,25.52615271601826,25.52615271601826,25.52615271601826,n,0,4.121745265991194,,,449062,001,2023-02-06_13h50.32.411,SEAL_LandmarkRecog,2022.2.4,None,
Recognition/Correct/Landmark8.jpeg,y,0,1,1,1,,,,,,30.299138647998916,30.299138647998916,30.299138647998916,n,0,0.6739741700002924,,,449062,001,2023-02-06_13h50.32.411,SEAL_LandmarkRecog,2022.2.4,None,
Recognition/Incorrect/Landmark37.jpeg,n,0,2,2,2,,,,,,31.682323567016283,31.682323567016283,31.682323567016283,n,1,0.42216582599212416,,,449062,001,2023-02-06_13h50.32.411,SEAL_LandmarkRecog,2022.2.4,None,
Recognition/Correct/Landmark10.jpeg,y,0,3,3,3,,,,,,32.73621914500836,32.73621914500836,32.73621914500836,n,0,0.41148496998357587,,,449062,001,2023-02-06_13h50.32.411,SEAL_LandmarkRecog,2022.2.4,None,
Recognition/Incorrect/Landmark30.jpeg,n,0,4,4,4,,,,,,33.77036124601727,33.77036124601727,33.77036124601727,n,1,0.4611145799863152,,,449062,001,2023-02-06_13h50.32.411,SEAL_LandmarkRecog,2022.2.4,None,
Recognition/Incorrect/Landmark38.jpeg,n,0,5,5,5,,,,,,34.8645768170245,34.8645768170245,34.8645768170245,n,1,0.6511023920029402,,,449062,001,2023-02-06_13h50.32.411,SEAL_LandmarkRecog,2022.2.4,None,
Recognition/Incorrect/Landmark27.jpeg,n,0,6,6,6,,,,,,36.290022296016105,36.290022296016105,36.290022296016105,n,1,0.43503469397546723,,,449062,001,2023-02-06_13h50.32.411,SEAL_LandmarkRecog,2022.2.4,None,
Recognition/Correct/Landmark18.jpeg,y,0,7,7,7,,,,,,37.304956578009296,37.304956578009296,37.304956578009296,n,0,0.8047741590125952,,,449062,001,2023-02-06_13h50.32.411,SEAL_LandmarkRecog,2022.2.4,None,
Recognition/Incorrect/Landmark33.jpeg,n,0,8,8,8,,,,,,38.77355678001186,38.77355678001186,38.77355678001186,n,1,0.8015793460072018,,,449062,001,2023-02-06_13h50.32.411,SEAL_LandmarkRecog,2022.2.4,None,
Recognition/Correct/Landmark2.jpeg,y,0,9,9,9,,,,,,40.214738972019404,40.214738972019404,40.214738972019404,n,0,0.40907411300577223,,,449062,001,2023-02-06_13h50.32.411,SEAL_LandmarkRecog,2022.2.4,None,
Recognition/Correct/Landmark11.jpeg,y,0,10,10,10,,,,,,41.197939533012686,41.197939533012686,41.197939533012686,n,0,0.3163942079991102,,,449062,001,2023-02-06_13h50.32.411,SEAL_LandmarkRecog,2022.2.4,None,
Recognition/Incorrect/Landmark25.jpeg,n,0,11,11,11,,,,,,42.114829157013446,42.114829157013446,42.114829157013446,n,1,0.4347482589946594,,,449062,001,2023-02-06_13h50.32.411,SEAL_LandmarkRecog,2022.2.4,None,
Recognition/Incorrect/Landmark28.jpeg,n,0,12,12,12,,,,,,43.14288954701624,43.14288954701624,43.14288954701624,n,1,0.05029344098875299,,,449062,001,2023-02-06_13h50.32.411,SEAL_LandmarkRecog,2022.2.4,None,
Recognition/Correct/Landmark16.jpeg,y,0,13,13,13,,,,,,43.84835158800706,43.84835158800706,43.84835158800706,n,0,0.02260031396872364,,,449062,001,2023-02-06_13h50.32.411,SEAL_LandmarkRecog,2022.2.4,None,
Recognition/Correct/Landmark6.jpeg,y,0,14,14,14,,,,,,44.17668417302775,44.17668417302775,44.17668417302775,n,0,0.13802456099074334,,,449062,001,2023-02-06_13h50.32.411,SEAL_LandmarkRecog,2022.2.4,None,
Recognition/Correct/Landmark7.jpeg,y,0,15,15,15,,,,,,44.99405564600602,44.99405564600602,44.99405564600602,n,0,0.19631150396890007,,,449062,001,2023-02-06_13h50.32.411,SEAL_LandmarkRecog,2022.2.4,None,
Recognition/Correct/Landmark5.jpeg,y,0,16,16,16,,,,,,45.90699068302638,45.90699068302638,45.90699068302638,n,0,0.03997292599524371,,,449062,001,2023-02-06_13h50.32.411,SEAL_LandmarkRecog,2022.2.4,None,
Recognition/Incorrect/Landmark39.jpeg,n,0,17,17,17,,,,,,46.52736705701682,46.52736705701682,46.52736705701682,n,1,0.04499780398327857,,,449062,001,2023-02-06_13h50.32.411,SEAL_LandmarkRecog,2022.2.4,None,
Recognition/Incorrect/Landmark21.jpeg,n,0,18,18,18,,,,,,47.20834005301003,47.20834005301003,47.20834005301003,n,1,0.09192383298068307,,,449062,001,2023-02-06_13h50.32.411,SEAL_LandmarkRecog,2022.2.4,None,
Recognition/Incorrect/Landmark24.jpeg,n,0,19,19,19,,,,,,47.92495378199965,47.92495378199965,47.92495378199965,n,1,0.55595072300639,,,449062,001,2023-02-06_13h50.32.411,SEAL_LandmarkRecog,2022.2.4,None,
Recognition/Correct/Landmark13.jpeg,y,0,20,20,20,,,,,,49.089577200007625,49.089577200007625,49.089577200007625,n,0,0.01493522198870778,,,449062,001,2023-02-06_13h50.32.411,SEAL_LandmarkRecog,2022.2.4,None,
Recognition/Incorrect/Landmark32.jpeg,n,0,21,21,21,,,,,,49.7157473230036,49.7157473230036,49.7157473230036,n,1,0.5499462559819221,,,449062,001,2023-02-06_13h50.32.411,SEAL_LandmarkRecog,2022.2.4,None,
Recognition/Incorrect/Landmark29.jpeg,n,0,22,22,22,,,,,,50.84133454901166,50.84133454901166,50.84133454901166,n,1,0.1368915399943944,,,449062,001,2023-02-06_13h50.32.411,SEAL_LandmarkRecog,2022.2.4,None,
Recognition/Correct/Landmark15.jpeg,y,0,23,23,23,,,,,,51.574737316026585,51.574737316026585,51.574737316026585,n,0,0.11800683100591414,,,449062,001,2023-02-06_13h50.32.411,SEAL_LandmarkRecog,2022.2.4,None,
Recognition/Incorrect/Landmark26.jpeg,n,0,24,24,24,,,,,,52.29938111701631,52.29938111701631,52.29938111701631,n,1,0.028545649984152988,,,449062,001,2023-02-06_13h50.32.411,SEAL_LandmarkRecog,2022.2.4,None,
Recognition/Correct/Landmark1.jpeg,y,0,25,25,25,,,,,,52.964585591020295,52.964585591020295,52.964585591020295,n,0,0.1882316089759115,,,449062,001,2023-02-06_13h50.32.411,SEAL_LandmarkRecog,2022.2.4,None,
Recognition/Correct/Landmark4.jpeg,y,0,26,26,26,,,,,,53.782972794026136,53.782972794026136,53.782972794026136,n,0,0.1879438989853952,,,449062,001,2023-02-06_13h50.32.411,SEAL_LandmarkRecog,2022.2.4,None,
Recognition/Incorrect/Landmark35.jpeg,n,0,27,27,27,,,,,,54.59768080001231,54.59768080001231,54.59768080001231,n,1,0.09439224898233078,,,449062,001,2023-02-06_13h50.32.411,SEAL_LandmarkRecog,2022.2.4,None,
Recognition/Incorrect/Landmark22.jpeg,n,0,28,28,28,,,,,,55.351732605020516,55.351732605020516,55.351732605020516,n,1,0.3238984239869751,,,449062,001,2023-02-06_13h50.32.411,SEAL_LandmarkRecog,2022.2.4,None,
Recognition/Incorrect/Landmark23.jpeg,n,0,29,29,29,,,,,,56.22518290701555,56.22518290701555,56.22518290701555,n,1,0.20761586600565352,,,449062,001,2023-02-06_13h50.32.411,SEAL_LandmarkRecog,2022.2.4,None,
Recognition/Incorrect/Landmark40.jpeg,n,0,30,30,30,,,,,,57.021047312999144,57.021047312999144,57.021047312999144,n,1,0.6831385129771661,,,449062,001,2023-02-06_13h50.32.411,SEAL_LandmarkRecog,2022.2.4,None,
Recognition/Incorrect/Landmark31.jpeg,n,0,31,31,31,,,,,,58.310146931005875,58.310146931005875,58.310146931005875,n,1,0.31123788698459975,,,449062,001,2023-02-06_13h50.32.411,SEAL_LandmarkRecog,2022.2.4,None,
Recognition/Correct/Landmark14.jpeg,y,0,32,32,32,,,,,,59.21968771901447,59.21968771901447,59.21968771901447,n,0,0.09609182400163263,,,449062,001,2023-02-06_13h50.32.411,SEAL_LandmarkRecog,2022.2.4,None,
Recognition/Correct/Landmark20.jpeg,y,0,33,33,33,,,,,,59.908258392009884,59.908258392009884,59.908258392009884,n,0,0.03515679098200053,,,449062,001,2023-02-06_13h50.32.411,SEAL_LandmarkRecog,2022.2.4,None,
Recognition/Incorrect/Landmark36.jpeg,n,0,34,34,34,,,,,,60.54356837502564,60.54356837502564,60.54356837502564,n,1,0.02341467296355404,,,449062,001,2023-02-06_13h50.32.411,SEAL_LandmarkRecog,2022.2.4,None,
Recognition/Correct/Landmark12.jpeg,y,0,35,35,35,,,,,,61.14978556701681,61.14978556701681,61.14978556701681,n,0,0.15788454801077023,,,449062,001,2023-02-06_13h50.32.411,SEAL_LandmarkRecog,2022.2.4,None,
Recognition/Incorrect/Landmark35.jpeg,n,0,36,36,36,,,,,,61.91497889801394,61.91497889801394,61.91497889801394,n,1,0.021485517965629697,,,449062,001,2023-02-06_13h50.32.411,SEAL_LandmarkRecog,2022.2.4,None,
Recognition/Correct/Landmark17.jpeg,y,0,37,37,37,,,,,,62.53512717902777,62.53512717902777,62.53512717902777,n,0,0.6750086159736384,,,449062,001,2023-02-06_13h50.32.411,SEAL_LandmarkRecog,2022.2.4,None,
Recognition/Correct/Landmark3.jpeg,y,0,38,38,38,,,,,,63.892249299999094,63.892249299999094,63.892249299999094,n,0,0.279279570968356,,,449062,001,2023-02-06_13h50.32.411,SEAL_LandmarkRecog,2022.2.4,None,
Recognition/Correct/Landmark19.jpeg,y,0,39,39,39,,,,,,64.820046724024,64.820046724024,64.820046724024,n,0,0.1587147459795233,,,449062,001,2023-02-06_13h50.32.411,SEAL_LandmarkRecog,2022.2.4,None,
,,,,,,,,,,,,,,,,,64.99450057800277,67.99814417300513,,,,,,,
