image,correct_key,Recog_trials.thisRepN,Recog_trials.thisTrialN,Recog_trials.thisN,Recog_trials.thisIndex,text.started,text.stopped,text_2.started,key_resp.started,key_resp.keys,key_resp.rt,LandmarkImage.started,Recog_Question.started,Recog_key_resp.started,text_4.started,Recog_key_resp.keys,Recog_key_resp.corr,Recog_key_resp.rt,text_3.started,text_3.stopped,participant,session,date,expName,psychopyVersion,frameRate,
,,,,,,13.683184980007354,16.67796728402027,16.67796728402027,16.67796728402027,space,55.10898394798278,,,,,,,,,,578044,001,2023-02-08_13h39.39.730,SEAL_LandmarkRecog,2022.2.4,None,
Recognition/Correct/Landmark9.jpeg,y,0,0,0,0,,,,,,,72.73534210401704,72.73534210401704,72.73534210401704,72.73534210401704,n,0,11.80409684299957,,,578044,001,2023-02-08_13h39.39.730,SEAL_LandmarkRecog,2022.2.4,None,
Recognition/Correct/Landmark8.jpeg,y,0,1,1,1,,,,,,,85.1710520000197,85.1710520000197,85.1710520000197,85.1710520000197,n,0,0.9476805769954808,,,578044,001,2023-02-08_13h39.39.730,SEAL_LandmarkRecog,2022.2.4,None,
Recognition/Incorrect/Landmark37.jpeg,n,0,2,2,2,,,,,,,87.02080168901011,87.02080168901011,87.02080168901011,87.02080168901011,n,1,0.5854839089734014,,,578044,001,2023-02-08_13h39.39.730,SEAL_LandmarkRecog,2022.2.4,None,
Recognition/Correct/Landmark10.jpeg,y,0,3,3,3,,,,,,,88.43063704299857,88.43063704299857,88.43063704299857,88.43063704299857,n,0,0.3499457629804965,,,578044,001,2023-02-08_13h39.39.730,SEAL_LandmarkRecog,2022.2.4,None,
Recognition/Incorrect/Landmark30.jpeg,n,0,4,4,4,,,,,,,89.39193741700728,89.39193741700728,89.39193741700728,89.39193741700728,n,1,1.2117489220108837,,,578044,001,2023-02-08_13h39.39.730,SEAL_LandmarkRecog,2022.2.4,None,
Recognition/Incorrect/Landmark38.jpeg,n,0,5,5,5,,,,,,,91.23004338500323,91.23004338500323,91.23004338500323,91.23004338500323,n,1,0.44763198401778936,,,578044,001,2023-02-08_13h39.39.730,SEAL_LandmarkRecog,2022.2.4,None,
Recognition/Incorrect/Landmark27.jpeg,n,0,6,6,6,,,,,,,92.2830020590045,92.2830020590045,92.2830020590045,92.2830020590045,n,1,0.12946105899754912,,,578044,001,2023-02-08_13h39.39.730,SEAL_LandmarkRecog,2022.2.4,None,
Recognition/Correct/Landmark18.jpeg,y,0,7,7,7,,,,,,,93.138746378012,93.138746378012,93.138746378012,93.138746378012,n,0,0.23492139999871142,,,578044,001,2023-02-08_13h39.39.730,SEAL_LandmarkRecog,2022.2.4,None,
Recognition/Incorrect/Landmark33.jpeg,n,0,8,8,8,,,,,,,94.08458100201096,94.08458100201096,94.08458100201096,94.08458100201096,n,1,0.2787639010057319,,,578044,001,2023-02-08_13h39.39.730,SEAL_LandmarkRecog,2022.2.4,None,
Recognition/Correct/Landmark2.jpeg,y,0,9,9,9,,,,,,,95.00976978201652,95.00976978201652,95.00976978201652,95.00976978201652,n,0,0.34059931998490356,,,578044,001,2023-02-08_13h39.39.730,SEAL_LandmarkRecog,2022.2.4,None,
Recognition/Correct/Landmark11.jpeg,y,0,10,10,10,,,,,,,95.92588925801101,95.92588925801101,95.92588925801101,95.92588925801101,n,0,0.29497659200569615,,,578044,001,2023-02-08_13h39.39.730,SEAL_LandmarkRecog,2022.2.4,None,
Recognition/Incorrect/Landmark25.jpeg,n,0,11,11,11,,,,,,,96.82042364301742,96.82042364301742,96.82042364301742,96.82042364301742,n,1,0.4128046300029382,,,578044,001,2023-02-08_13h39.39.730,SEAL_LandmarkRecog,2022.2.4,None,
Recognition/Incorrect/Landmark28.jpeg,n,0,12,12,12,,,,,,,97.80887401499785,97.80887401499785,97.80887401499785,97.80887401499785,n,1,0.3115456009982154,,,578044,001,2023-02-08_13h39.39.730,SEAL_LandmarkRecog,2022.2.4,None,
Recognition/Correct/Landmark16.jpeg,y,0,13,13,13,,,,,,,98.76691459599533,98.76691459599533,98.76691459599533,98.76691459599533,n,0,0.5542022529989481,,,578044,001,2023-02-08_13h39.39.730,SEAL_LandmarkRecog,2022.2.4,None,
Recognition/Correct/Landmark6.jpeg,y,0,14,14,14,,,,,,,99.57468019399676,99.57468019399676,99.57468019399676,99.57468019399676,n,0,1.1508003089984413,,,578044,001,2023-02-08_13h39.39.730,SEAL_LandmarkRecog,2022.2.4,None,
Recognition/Correct/Landmark7.jpeg,y,0,15,15,15,,,,,,,101.33087643200997,101.33087643200997,101.33087643200997,101.33087643200997,n,0,0.35614280798472464,,,578044,001,2023-02-08_13h39.39.730,SEAL_LandmarkRecog,2022.2.4,None,
Recognition/Correct/Landmark5.jpeg,y,0,16,16,16,,,,,,,102.35556615699898,102.35556615699898,102.35556615699898,102.35556615699898,n,0,0.13266467599896714,,,578044,001,2023-02-08_13h39.39.730,SEAL_LandmarkRecog,2022.2.4,None,
Recognition/Incorrect/Landmark39.jpeg,n,0,17,17,17,,,,,,,103.01823367201723,103.01823367201723,103.01823367201723,103.01823367201723,n,1,0.9793716199928895,,,578044,001,2023-02-08_13h39.39.730,SEAL_LandmarkRecog,2022.2.4,None,
Recognition/Incorrect/Landmark21.jpeg,n,0,18,18,18,,,,,,,104.58847998600686,104.58847998600686,104.58847998600686,104.58847998600686,n,1,9.70414899897878,,,578044,001,2023-02-08_13h39.39.730,SEAL_LandmarkRecog,2022.2.4,None,
Recognition/Incorrect/Landmark24.jpeg,n,0,19,19,19,,,,,,,114.96956478600623,114.96956478600623,114.96956478600623,114.96956478600623,n,1,29.630305181985023,,,578044,001,2023-02-08_13h39.39.730,SEAL_LandmarkRecog,2022.2.4,None,
Recognition/Correct/Landmark13.jpeg,y,0,20,20,20,,,,,,,145.25426616801997,145.25426616801997,145.25426616801997,145.25426616801997,n,0,0.23961446300381795,,,578044,001,2023-02-08_13h39.39.730,SEAL_LandmarkRecog,2022.2.4,None,
Recognition/Incorrect/Landmark32.jpeg,n,0,21,21,21,,,,,,,146.27493956300896,146.27493956300896,146.27493956300896,146.27493956300896,n,1,0.27399600797798485,,,578044,001,2023-02-08_13h39.39.730,SEAL_LandmarkRecog,2022.2.4,None,
Recognition/Incorrect/Landmark29.jpeg,n,0,22,22,22,,,,,,,147.1061322290043,147.1061322290043,147.1061322290043,147.1061322290043,n,1,0.6255118249973748,,,578044,001,2023-02-08_13h39.39.730,SEAL_LandmarkRecog,2022.2.4,None,
Recognition/Correct/Landmark15.jpeg,y,0,23,23,23,,,,,,,148.2826742940233,148.2826742940233,148.2826742940233,148.2826742940233,n,0,0.4743359599960968,,,578044,001,2023-02-08_13h39.39.730,SEAL_LandmarkRecog,2022.2.4,None,
Recognition/Incorrect/Landmark26.jpeg,n,0,24,24,24,,,,,,,149.32619544301997,149.32619544301997,149.32619544301997,149.32619544301997,n,1,0.4422427339886781,,,578044,001,2023-02-08_13h39.39.730,SEAL_LandmarkRecog,2022.2.4,None,
Recognition/Correct/Landmark1.jpeg,y,0,25,25,25,,,,,,,150.3583502859983,150.3583502859983,150.3583502859983,150.3583502859983,n,0,0.45405510198906995,,,578044,001,2023-02-08_13h39.39.730,SEAL_LandmarkRecog,2022.2.4,None,
Recognition/Correct/Landmark4.jpeg,y,0,26,26,26,,,,,,,151.37557393001043,151.37557393001043,151.37557393001043,151.37557393001043,n,0,0.6348554379947018,,,578044,001,2023-02-08_13h39.39.730,SEAL_LandmarkRecog,2022.2.4,None,
Recognition/Incorrect/Landmark35.jpeg,n,0,27,27,27,,,,,,,152.58965649901074,152.58965649901074,152.58965649901074,152.58965649901074,n,1,0.617612606001785,,,578044,001,2023-02-08_13h39.39.730,SEAL_LandmarkRecog,2022.2.4,None,
Recognition/Incorrect/Landmark22.jpeg,n,0,28,28,28,,,,,,,153.8188741110207,153.8188741110207,153.8188741110207,153.8188741110207,n,1,0.5288908889924642,,,578044,001,2023-02-08_13h39.39.730,SEAL_LandmarkRecog,2022.2.4,None,
Recognition/Incorrect/Landmark23.jpeg,n,0,29,29,29,,,,,,,154.87550303601893,154.87550303601893,154.87550303601893,154.87550303601893,n,1,1.2724580920184962,,,578044,001,2023-02-08_13h39.39.730,SEAL_LandmarkRecog,2022.2.4,None,
Recognition/Incorrect/Landmark40.jpeg,n,0,30,30,30,,,,,,,156.69978381702094,156.69978381702094,156.69978381702094,156.69978381702094,n,1,0.4409761489951052,,,578044,001,2023-02-08_13h39.39.730,SEAL_LandmarkRecog,2022.2.4,None,
Recognition/Incorrect/Landmark31.jpeg,n,0,31,31,31,,,,,,,157.70053640101105,157.70053640101105,157.70053640101105,157.70053640101105,n,1,1.499029383994639,,,578044,001,2023-02-08_13h39.39.730,SEAL_LandmarkRecog,2022.2.4,None,
Recognition/Correct/Landmark14.jpeg,y,0,32,32,32,,,,,,,159.77767815100378,159.77767815100378,159.77767815100378,159.77767815100378,n,0,0.5412742200132925,,,578044,001,2023-02-08_13h39.39.730,SEAL_LandmarkRecog,2022.2.4,None,
Recognition/Correct/Landmark20.jpeg,y,0,33,33,33,,,,,,,160.88022443299997,160.88022443299997,160.88022443299997,160.88022443299997,n,0,0.8099925719725434,,,578044,001,2023-02-08_13h39.39.730,SEAL_LandmarkRecog,2022.2.4,None,
Recognition/Incorrect/Landmark36.jpeg,n,0,34,34,34,,,,,,,162.26755507101188,162.26755507101188,162.26755507101188,162.26755507101188,n,1,0.5045018449891359,,,578044,001,2023-02-08_13h39.39.730,SEAL_LandmarkRecog,2022.2.4,None,
Recognition/Correct/Landmark12.jpeg,y,0,35,35,35,,,,,,,163.30871124501573,163.30871124501573,163.30871124501573,163.30871124501573,n,0,1.1721834790077992,,,578044,001,2023-02-08_13h39.39.730,SEAL_LandmarkRecog,2022.2.4,None,
Recognition/Incorrect/Landmark35.jpeg,n,0,36,36,36,,,,,,,165.04385394000565,165.04385394000565,165.04385394000565,165.04385394000565,n,1,0.8446824889979325,,,578044,001,2023-02-08_13h39.39.730,SEAL_LandmarkRecog,2022.2.4,None,
Recognition/Correct/Landmark17.jpeg,y,0,37,37,37,,,,,,,166.40948292901157,166.40948292901157,166.40948292901157,166.40948292901157,n,0,1.5755486619891599,,,578044,001,2023-02-08_13h39.39.730,SEAL_LandmarkRecog,2022.2.4,None,
Recognition/Correct/Landmark3.jpeg,y,0,38,38,38,,,,,,,168.63158539199503,168.63158539199503,168.63158539199503,168.63158539199503,n,0,0.7580170599976555,,,578044,001,2023-02-08_13h39.39.730,SEAL_LandmarkRecog,2022.2.4,None,
Recognition/Correct/Landmark19.jpeg,y,0,39,39,39,,,,,,,170.00290025401046,170.00290025401046,170.00290025401046,170.00290025401046,n,0,2.0242093029955868,,,578044,001,2023-02-08_13h39.39.730,SEAL_LandmarkRecog,2022.2.4,None,
,,,,,,,,,,,,,,,,,,,172.04177332902327,175.03664979201858,,,,,,,
